Folder: quantInAmerica/data/price

File: TGA_price.csv
"","date","TGA"
"1","2007-01-03",4.82
"13","2007-01-22",4.86
"25","2007-02-07",4.7
"37","2007-02-26",4.58
"49","2007-03-14",4.17
"61","2007-03-30",3.93
"73","2007-04-18",3.94
"85","2007-05-04",4.03
"97","2007-05-22",3.9
"109","2007-06-08",3.98
"121","2007-06-26",4.18
"133","2007-07-13",5.14
"145","2007-07-31",4.54
"157","2007-08-16",3.7
"169","2007-09-04",4.1
"181","2007-09-20",4.68
"193","2007-10-08",5.02
"205","2007-10-24",5.41
"217","2007-11-09",5.45
"229","2007-11-28",5.26
"241","2007-12-14",5.43
"253","2008-01-03",5.33
"265","2008-01-22",4.68
"277","2008-02-07",4.89
"289","2008-02-26",5.46
"301","2008-03-13",5.07
"313","2008-04-01",4.86
"325","2008-04-17",4.99
"337","2008-05-05",4.9
"349","2008-05-21",5.21
"361","2008-06-09",5.06
"373","2008-06-25",5.26
"385","2008-07-14",4.65
"397","2008-07-30",4.25
"409","2008-08-15",3.89
"421","2008-09-03",3.74
"433","2008-09-19",3.29
"445","2008-10-07",2.25
"457","2008-10-23",1.73
"469","2008-11-10",2.43
"481","2008-11-26",2.11
"493","2008-12-15",2.22
"505","2009-01-02",2.6
"517","2009-01-21",2.37
"529","2009-02-06",2.82
"541","2009-02-25",2.58
"553","2009-03-13",2.71
"565","2009-03-31",2.78
"577","2009-04-17",2.5
"589","2009-05-05",2.76
"601","2009-05-21",2.57
"613","2009-06-09",2.77
"625","2009-06-25",2.66
"637","2009-07-14",2.48
"649","2009-07-30",3.11
"661","2009-08-17",3.07
"673","2009-09-02",3.1
"685","2009-09-21",3.64
"697","2009-10-07",3.81
"709","2009-10-23",4.43
"721","2009-11-10",3.57
"733","2009-11-27",3.66
"745","2009-12-15",3.49
"757","2010-01-04",3.44
"769","2010-01-21",3.47
"781","2010-02-08",3.7
"793","2010-02-25",3.84
"805","2010-03-15",4.51
"817","2010-03-31",5.8
"829","2010-04-19",6.84
"841","2010-05-05",7.2
"853","2010-05-21",6.79
"865","2010-06-09",7.52
"877","2010-06-25",7.65
"889","2010-07-14",7.53
"901","2010-07-30",7.54
"913","2010-08-17",7.75
"925","2010-09-02",7.4
"937","2010-09-21",8.84
"949","2010-10-07",9.4
"961","2010-10-25",10.53
"973","2010-11-10",15.2
"985","2010-11-29",16.73
"997","2010-12-15",14.09
"1009","2011-01-03",15.94
"1021","2011-01-20",14.47
"1033","2011-02-07",15.17
"1045","2011-02-24",13.76
"1057","2011-03-14",13.48
"1069","2011-03-30",15.2
"1081","2011-04-15",14.14
"1093","2011-05-04",13.03
"1105","2011-05-20",13.5
"1117","2011-06-08",13.11
"1129","2011-06-24",10.89
"1141","2011-07-13",11.96
"1153","2011-07-29",10.71
"1165","2011-08-16",9.45
"1177","2011-09-01",9.62
"1189","2011-09-20",9.79
"1201","2011-10-06",8.56
"1213","2011-10-24",10
"1225","2011-11-09",9.53
"1237","2011-11-28",7.92
"1249","2011-12-14",6.89
"1261","2012-01-03",8.25
"1273","2012-01-20",9.35
"1285","2012-02-07",10.33
"1297","2012-02-24",11.16
"1309","2012-03-13",12.15
"1321","2012-03-29",12.05
"1333","2012-04-17",12.86
"1345","2012-05-03",13.52
"1357","2012-05-21",10.53
"1369","2012-06-07",9.75
"1381","2012-06-25",8.12
"1393","2012-07-12",8.54
"1405","2012-07-30",9.84
"1417","2012-08-15",9.47
"1429","2012-08-31",10.23
"1441","2012-09-19",11.78
"1453","2012-10-05",11.17
"1465","2012-10-23",11.14
"1477","2012-11-12",11.63
"1489","2012-11-29",10.37
"1501","2012-12-17",9.7
"1513","2013-01-04",9.35
"1525","2013-01-23",8.67
"1537","2013-02-08",9.16
"1549","2013-02-27",7.93
"1561","2013-03-15",9.28
"1573","2013-04-03",7.82
"1585","2013-04-19",7.15
"1597","2013-05-07",8.07
"1609","2013-05-23",7.57
"1621","2013-06-11",7.17
"1633","2013-06-27",6.04
"1645","2013-07-16",6.07
"1657","2013-08-01",6.68
"1669","2013-08-19",6.52
"1681","2013-09-05",7.22
"1693","2013-09-23",7.89
"1705","2013-10-09",8.76
"1717","2013-10-25",9.04
"1729","2013-11-12",8.58
"1741","2013-11-29",8.76
"1753","2013-12-17",8.66
"1765","2014-01-06",8.42
"1777","2014-01-23",8.41
"1789","2014-02-10",6.97
"1801","2014-02-27",7.33
"1813","2014-03-17",7.75
"1825","2014-04-02",7.64
"1837","2014-04-21",7.81
"1849","2014-05-07",7.3
"1861","2014-05-23",6.62
"1873","2014-06-11",7.22
"1885","2014-06-27",7.42
"1897","2014-07-16",6.65
"1909","2014-08-01",6.12
"1921","2014-08-19",6.34
"1933","2014-09-05",6.59
"1945","2014-09-23",6.03
"1957","2014-10-09",5.28
"1969","2014-10-27",4.47
"1981","2014-11-12",4.13
"1993","2014-12-01",3.2
"2005","2014-12-17",3.21
"2017","2015-01-06",3.55
"2029","2015-01-23",2.88
"2041","2015-02-10",3.17
"2053","2015-02-27",2.92
"2065","2015-03-17",2.85
"2077","2015-04-02",3.75
"2089","2015-04-21",4.37
"2101","2015-05-07",4.08
"2113","2015-05-26",4.09
"2125","2015-06-11",4.07
"2137","2015-06-29",3.96
"2149","2015-07-16",3.41
"2161","2015-08-03",2.92
"2173","2015-08-19",2.71
"2185","2015-09-04",2.76
"2197","2015-09-23",2.69
"2209","2015-10-09",3.02
"2221","2015-10-27",2.52
"2233","2015-11-12",2.3
"2245","2015-12-01",2.15
"2257","2015-12-17",1.64
"2269","2016-01-06",1.7
"2281","2016-01-25",1.17
"2293","2016-02-10",1.23
"2305","2016-02-29",1.44
"2317","2016-03-16",1.66
"2329","2016-04-04",1.68
"2341","2016-04-20",1.93
"2353","2016-05-06",1.94
"2365","2016-05-24",1.7
"2377","2016-06-10",1.76
"2389","2016-06-28",1.86
"2401","2016-07-15",1.77
"2413","2016-08-02",1.61
"2425","2016-08-18",2.1
"2437","2016-09-06",1.94
"2449","2016-09-22",1.92
"2461","2016-10-10",2.12
"2473","2016-10-26",1.86
"2485","2016-11-11",1.78
"2497","2016-11-30",1.75
"2509","2016-12-16",1.73
"2521","2017-01-05",1.84
"2533","2017-01-24",1.75
"2545","2017-02-09",1.64
"2557","2017-02-28",1.63
"2569","2017-03-16",1.54
"2581","2017-04-03",1.57
"2593","2017-04-20",1.53
"2605","2017-05-08",1.47
"2617","2017-05-24",1.58
"2629","2017-06-12",1.33
"2641","2017-06-28",1.29
"2653","2017-07-17",1.34
"2665","2017-08-02",1.32
"2677","2017-08-18",1.19
"2689","2017-09-06",1.28
"2701","2017-09-22",1.26
"2713","2017-10-10",1.56
"2725","2017-10-26",1.55
"2737","2017-11-13",1.5
"2749","2017-11-30",1.45
"2761","2017-12-18",1.28
"2773","2018-01-05",1.44
"2785","2018-01-24",1.46
"2797","2018-02-09",1.27
"2809","2018-02-28",1.3
"2821","2018-03-16",1.33
"2833","2018-04-04",1.32
"2845","2018-04-20",1.61
"2857","2018-05-08",1.99
"2869","2018-05-24",2.31
"2881","2018-06-12",2.39
"2893","2018-06-28",2.72
"2905","2018-07-17",3.53
"2917","2018-08-02",3.16
"2929","2018-08-20",3.33
"2941","2018-09-06",3.24
"2953","2018-09-24",3.44
"2965","2018-10-10",3.18
"2977","2018-10-26",2.45
"2989","2018-11-13",2.38
"3001","2018-11-30",2.16
"3013","2018-12-19",1.66
"3025","2019-01-08",2.04
"3037","2019-01-25",1.86
"3049","2019-02-12",1.91
"3061","2019-03-01",1.98
"3073","2019-03-19",2.14
"3085","2019-04-04",1.79
"3097","2019-04-23",1.89
"3109","2019-05-09",1.81
"3121","2019-05-28",1.51
"3133","2019-06-13",1.46
"3145","2019-07-01",1.4
"3157","2019-07-18",1.43
"3169","2019-08-05",1.46
"3181","2019-08-21",1.44
"3193","2019-09-09",1.45
"3205","2019-09-25",1.37
"3217","2019-10-11",1.29
"3229","2019-10-29",1.19
"3241","2019-11-14",1.17
"3253","2019-12-03",1.13
"3265","2019-12-19",1.39
"3277","2020-01-08",1.34
"3289","2020-01-27",1.22
"3301","2020-02-12",1.24
"3313","2020-03-02",1.1
"3325","2020-03-18",0.39
"3337","2020-04-03",0.4
"3349","2020-04-22",0.43
"3361","2020-05-08",0.55
"3373","2020-05-27",0.54
"3385","2020-06-12",0.6
"3397","2020-06-30",0.57
"3409","2020-07-17",0.58
"3421","2020-08-04",0.6
"3433","2020-08-20",0.57
"3445","2020-09-08",0.48
"3457","2020-09-24",0.4
"3469","2020-10-12",0.45
"3481","2020-10-28",0.39
"3493","2020-11-13",0.43
"3502","2020-11-27",0.53