Folder: quantInAmerica/data/pyprice

File: TGA_price.csv
Date,High,Low,Open,Close,Volume,Adj Close
2016-02-08,1.26,1.18,1.23,1.23,147800.0,1.16343
2016-02-17,1.42,1.25,1.25,1.39,167600.0,1.31477
2016-02-25,1.5,1.34,1.35,1.46,108100.0,1.38098
2016-03-04,1.75,1.64,1.64,1.66,194400.0,1.57016
2016-03-14,1.74,1.65,1.69,1.69,78100.0,1.59854
2016-03-22,1.72,1.65,1.69,1.65,122200.0,1.5607
2016-03-31,1.72,1.65,1.7,1.66,70300.0,1.57016
2016-04-08,1.77,1.69,1.71,1.75,112700.0,1.65529
2016-04-18,1.8,1.68,1.69,1.8,106800.0,1.70258
2016-04-26,2.01,1.87,1.95,2.01,193100.0,1.90122
2016-05-04,1.92,1.81,1.91,1.84,166600.0,1.74042
2016-05-12,1.99,1.91,1.91,1.97,162700.0,1.86338
2016-05-20,1.82,1.7,1.82,1.75,263200.0,1.65529
2016-05-31,1.73,1.69,1.71,1.69,36300.0,1.59854
2016-06-08,1.82,1.75,1.77,1.81,149900.0,1.71204
2016-06-16,1.62,1.55,1.61,1.6,151300.0,1.51341
2016-06-24,1.9,1.79,1.79,1.81,53000.0,1.71204
2016-07-05,1.83,1.75,1.82,1.8,60300.0,1.70258
2016-07-13,1.81,1.73,1.79,1.75,17300.0,1.65529
2016-07-21,1.75,1.72,1.72,1.74,16800.0,1.64583
2016-07-29,1.65,1.61,1.64,1.63,16700.0,1.54178
2016-08-08,1.68,1.58,1.63,1.61,79400.0,1.52287
2016-08-16,1.96,1.92,1.92,1.92,35600.0,1.81609
2016-08-24,2.03,1.9,1.95,1.91,99200.0,1.80663
2016-09-01,1.86,1.8,1.85,1.86,50700.0,1.75934
2016-09-12,2.16,2.08,2.16,2.09,62500.0,1.97689
2016-09-20,1.99,1.92,1.99,1.96,48100.0,1.85392
2016-09-28,1.98,1.78,1.82,1.94,70800.0,1.83501
2016-10-06,2.09,2.02,2.07,2.08,62800.0,1.96743
2016-10-14,2.16,2.08,2.13,2.13,93600.0,2.01472
2016-10-24,2.08,1.91,2.02,1.95,95900.0,1.84447
2016-11-01,1.86,1.78,1.83,1.81,91600.0,1.71204
2016-11-09,1.84,1.77,1.78,1.84,53100.0,1.74042
2016-11-17,1.84,1.76,1.79,1.76,76800.0,1.66475
2016-11-28,1.8,1.76,1.78,1.77,17500.0,1.67421
2016-12-06,1.8,1.62,1.8,1.72,414700.0,1.62691
2016-12-14,1.85,1.71,1.85,1.71,180400.0,1.61745
2016-12-22,1.71,1.68,1.71,1.69,62900.0,1.59854
2017-01-03,1.83,1.69,1.73,1.83,255000.0,1.73096
2017-01-11,1.85,1.75,1.78,1.82,113900.0,1.7215
2017-01-20,1.76,1.72,1.74,1.74,48900.0,1.64583
2017-01-30,1.73,1.64,1.73,1.66,193500.0,1.57016
2017-02-07,1.74,1.67,1.69,1.7,60400.0,1.608
2017-02-15,1.81,1.72,1.8,1.75,101000.0,1.65529
2017-02-24,1.7,1.64,1.68,1.65,153400.0,1.5607
2017-03-06,1.64,1.58,1.6,1.59,80500.0,1.50395
2017-03-14,1.6,1.53,1.58,1.55,215700.0,1.46611
2017-03-22,1.53,1.48,1.53,1.5,144900.0,1.41882
2017-03-30,1.63,1.57,1.63,1.59,43200.0,1.50395
2017-04-07,1.6,1.57,1.6,1.58,25700.0,1.49449
2017-04-18,1.55,1.5,1.5,1.51,19700.0,1.42828
2017-04-26,1.52,1.48,1.52,1.5,51900.0,1.41882
2017-05-04,1.44,1.37,1.42,1.38,134900.0,1.30531
2017-05-12,1.54,1.48,1.52,1.5,84800.0,1.41882
2017-05-22,1.65,1.57,1.65,1.6,43200.0,1.51341
2017-05-31,1.46,1.4,1.44,1.44,144700.0,1.36207
2017-06-08,1.4,1.35,1.39,1.36,110700.0,1.2864
2017-06-16,1.3,1.21,1.23,1.28,106100.0,1.21073
2017-06-26,1.33,1.27,1.33,1.32,18900.0,1.24856
2017-07-05,1.33,1.3,1.33,1.31,3700.0,1.2391
2017-07-13,1.35,1.28,1.29,1.33,60100.0,1.25802
2017-07-21,1.37,1.34,1.34,1.36,144300.0,1.2864
2017-07-31,1.39,1.35,1.36,1.35,10300.0,1.27694
2017-08-08,1.28,1.23,1.25,1.24,65800.0,1.17289
2017-08-16,1.25,1.21,1.22,1.23,106800.0,1.16343
2017-08-24,1.31,1.22,1.24,1.31,34800.0,1.2391
2017-09-01,1.36,1.29,1.35,1.29,18600.0,1.22018
2017-09-12,1.23,1.16,1.23,1.17,127800.0,1.10668
2017-09-20,1.18,1.14,1.15,1.16,129100.0,1.09722
2017-09-28,1.39,1.35,1.35,1.38,64200.0,1.30531
2017-10-06,1.52,1.45,1.45,1.51,182500.0,1.42828
2017-10-16,1.65,1.58,1.59,1.6,41200.0,1.51341
2017-10-24,1.59,1.53,1.53,1.57,41000.0,1.48503
2017-11-01,1.77,1.68,1.68,1.77,151400.0,1.67421
2017-11-09,1.55,1.49,1.55,1.51,42800.0,1.42828
2017-11-17,1.5,1.44,1.44,1.48,21400.0,1.3999
2017-11-28,1.48,1.44,1.46,1.48,21700.0,1.3999
2017-12-06,1.44,1.36,1.44,1.37,171100.0,1.29586
2017-12-14,1.34,1.31,1.34,1.33,102200.0,1.25802
2017-12-22,1.35,1.3,1.33,1.34,222000.0,1.26748
2018-01-03,1.46,1.36,1.45,1.44,94600.0,1.36207
2018-01-11,1.5,1.44,1.44,1.48,315000.0,1.3999
2018-01-22,1.49,1.46,1.47,1.47,48300.0,1.39044
2018-01-30,1.49,1.38,1.48,1.39,180500.0,1.31477
2018-02-07,1.47,1.37,1.4,1.37,175900.0,1.29586
2018-02-15,1.35,1.3,1.35,1.3,52800.0,1.22964
2018-02-26,1.36,1.31,1.34,1.34,71900.0,1.26748
2018-03-06,1.3,1.27,1.3,1.28,45100.0,1.21073
2018-03-14,1.34,1.32,1.34,1.33,21900.0,1.25802
2018-03-22,1.45,1.41,1.41,1.45,23900.0,1.37153
2018-04-02,1.34,1.31,1.33,1.32,23700.0,1.24856
2018-04-10,1.33,1.28,1.28,1.3,104300.0,1.22964
2018-04-18,1.46,1.39,1.4,1.39,149300.0,1.31477
2018-04-26,1.68,1.62,1.64,1.63,64400.0,1.54178
2018-05-04,1.94,1.84,1.9,1.87,162100.0,1.76879
2018-05-14,1.94,1.86,1.88,1.92,249200.0,1.81609
2018-05-22,2.75,2.19,2.7,2.24,1550600.0,2.11877
2018-05-31,2.55,2.46,2.49,2.54,363700.0,2.40253
2018-06-08,2.47,2.38,2.45,2.46,189400.0,2.32686
2018-06-18,2.38,2.23,2.23,2.33,253700.0,2.2039
2018-06-26,2.48,2.38,2.43,2.44,511500.0,2.30795
2018-07-05,2.93,2.8,2.9,2.9,784100.0,2.74305
2018-07-13,4.13,3.76,3.77,4.05,1783500.0,3.83081
2018-07-23,3.5,3.36,3.45,3.42,384500.0,3.23491
2018-07-31,3.3,3.08,3.14,3.24,421700.0,3.06465
2018-08-08,3.24,3.16,3.17,3.21,418900.0,3.03627
2018-08-16,3.11,2.88,2.92,3.07,606000.0,2.90385
2018-08-24,3.6,3.43,3.43,3.49,290700.0,3.30112
2018-09-04,3.38,3.26,3.38,3.32,220900.0,3.17241
2018-09-12,3.85,3.5,3.8,3.63,377300.0,3.46863
2018-09-20,3.4,3.25,3.38,3.31,356300.0,3.16286
2018-09-28,3.44,3.27,3.29,3.34,765400.0,3.19152
2018-10-08,3.3,3.16,3.3,3.28,303600.0,3.13419
2018-10-16,3.14,3.0,3.01,3.11,318600.0,2.97175
2018-10-24,2.44,2.06,2.06,2.34,1109300.0,2.23598
2018-11-01,2.47,2.28,2.33,2.47,244200.0,2.3602
2018-11-09,2.21,2.09,2.21,2.17,167900.0,2.07353
2018-11-19,2.44,2.23,2.32,2.32,357900.0,2.21687
2018-11-28,2.07,1.96,2.03,2.05,185400.0,1.95887
2018-12-07,2.07,1.97,2.03,2.0,161900.0,1.91109
2018-12-17,1.84,1.75,1.79,1.77,336800.0,1.69132
2018-12-26,1.68,1.48,1.52,1.66,144900.0,1.58621
2019-01-04,1.97,1.87,1.92,1.94,171100.0,1.85376
2019-01-14,1.99,1.91,1.96,1.94,60700.0,1.85376
2019-01-23,1.84,1.75,1.76,1.75,95100.0,1.6722
2019-01-31,1.9,1.78,1.85,1.81,88300.0,1.72954
2019-02-08,1.91,1.8,1.86,1.84,63300.0,1.7582
2019-02-19,2.18,2.06,2.09,2.12,204800.0,2.02576
2019-02-27,2.04,2.0,2.0,2.02,26100.0,1.9302
2019-03-07,2.07,1.99,2.01,2.04,44900.0,1.94931
2019-03-15,2.11,2.01,2.08,2.03,202000.0,1.93976
2019-03-25,1.98,1.82,1.98,1.86,337700.0,1.77731
2019-04-02,1.9,1.85,1.85,1.86,108300.0,1.81178
2019-04-10,1.95,1.86,1.86,1.89,112900.0,1.841
2019-04-18,1.88,1.85,1.85,1.88,76700.0,1.83126
2019-04-29,1.95,1.87,1.9,1.95,51500.0,1.89944
2019-05-07,1.86,1.79,1.83,1.84,97000.0,1.7923
2019-05-15,1.78,1.74,1.75,1.75,205600.0,1.70463
2019-05-23,1.6,1.5,1.6,1.52,143700.0,1.48059
2019-06-03,1.57,1.5,1.5,1.53,106200.0,1.49033
2019-06-11,1.5,1.45,1.49,1.47,138200.0,1.43189
2019-06-19,1.48,1.39,1.48,1.4,164500.0,1.3637
2019-06-27,1.42,1.39,1.39,1.42,54300.0,1.38319
2019-07-08,1.4,1.34,1.35,1.35,268800.0,1.315
2019-07-16,1.49,1.46,1.48,1.46,62800.0,1.42215
2019-07-24,1.48,1.45,1.45,1.45,43500.0,1.41241
2019-08-01,1.59,1.5,1.55,1.53,174100.0,1.49033
2019-08-09,1.48,1.42,1.45,1.43,40800.0,1.39293
2019-08-19,1.49,1.42,1.47,1.45,143000.0,1.41241
2019-08-27,1.36,1.3,1.34,1.33,94900.0,1.29552
2019-09-05,1.37,1.32,1.36,1.37,68900.0,1.37
2019-09-13,1.46,1.38,1.44,1.41,191600.0,1.41
2019-09-23,1.48,1.38,1.38,1.41,212300.0,1.41
2019-10-01,1.35,1.3,1.32,1.32,213100.0,1.32
2019-10-09,1.34,1.28,1.31,1.3,99800.0,1.3
2019-10-17,1.27,1.25,1.27,1.27,112500.0,1.27
2019-10-25,1.26,1.2,1.22,1.21,169900.0,1.21
2019-11-04,1.24,1.18,1.19,1.24,285600.0,1.24
2019-11-12,1.22,1.18,1.22,1.18,150100.0,1.18
2019-11-20,1.16,1.09,1.11,1.14,238200.0,1.14
2019-11-29,1.15,1.12,1.14,1.13,278100.0,1.13
2019-12-09,1.21,1.18,1.2,1.18,245400.0,1.18
2019-12-17,1.31,1.24,1.28,1.25,239400.0,1.25
2019-12-26,1.48,1.4,1.45,1.44,108800.0,1.44
2020-01-06,1.46,1.4,1.46,1.42,212800.0,1.42
2020-01-14,1.44,1.38,1.42,1.38,106100.0,1.38
2020-01-23,1.36,1.29,1.36,1.31,174300.0,1.31
2020-01-31,1.29,1.21,1.29,1.28,115300.0,1.28
2020-02-10,1.3,1.23,1.3,1.25,56800.0,1.25
2020-02-19,1.24,1.19,1.24,1.22,144900.0,1.22
2020-02-27,1.14,1.02,1.13,1.08,409700.0,1.08
2020-03-06,1.07,0.95,1.06,0.97,379800.0,0.97
2020-03-16,0.52,0.36,0.36,0.51,190200.0,0.51
2020-03-24,0.45,0.38,0.4,0.42,160900.0,0.42
2020-04-01,0.41,0.3,0.4,0.34,361000.0,0.34
2020-04-09,0.51,0.45,0.46,0.48,214800.0,0.48
2020-04-20,0.46,0.4,0.44,0.43,96300.0,0.43
2020-04-28,0.47,0.43,0.45,0.47,81500.0,0.47
2020-05-06,0.6,0.51,0.59,0.53,74000.0,0.53
2020-05-14,0.48,0.45,0.47,0.47,61000.0,0.47
2020-05-22,0.57,0.53,0.54,0.54,69000.0,0.54
2020-06-02,0.54,0.49,0.5,0.52,306700.0,0.52
2020-06-10,0.69,0.59,0.69,0.63,271600.0,0.63
2020-06-18,0.59,0.55,0.57,0.57,62300.0,0.57
2020-06-26,0.58,0.54,0.55,0.56,84700.0,0.56
2020-07-07,0.66,0.58,0.66,0.6,173700.0,0.6
2020-07-15,0.61,0.58,0.61,0.59,67200.0,0.59
2020-07-23,0.64,0.58,0.62,0.6,172300.0,0.6
2020-07-31,0.6,0.57,0.57,0.58,91000.0,0.58
2020-08-10,0.64,0.57,0.6,0.62,122400.0,0.62
2020-08-18,0.61,0.59,0.6,0.6,41500.0,0.6
2020-08-26,0.58,0.53,0.58,0.55,241200.0,0.55
2020-09-03,0.54,0.51,0.53,0.51,129400.0,0.51
2020-09-14,0.47,0.44,0.45,0.46,96700.0,0.46
2020-09-22,0.42,0.39,0.42,0.4,162600.0,0.4
2020-09-30,0.42,0.38,0.38,0.41,187300.0,0.41
2020-10-08,0.58,0.4,0.42,0.52,1294100.0,0.52
2020-10-16,0.46,0.44,0.45,0.45,151800.0,0.45
2020-10-26,0.42,0.39,0.42,0.4,320500.0,0.4
2020-11-03,0.43,0.39,0.39,0.42,83200.0,0.42
2020-11-11,0.44,0.42,0.44,0.44,445300.0,0.44
2020-11-19,0.46,0.45,0.45,0.46,268400.0,0.46
2020-11-30,0.53,0.5,0.51,0.51,175800.0,0.51
2020-12-08,0.93,0.83,0.84,0.88,1018200.0,0.88
2020-12-16,0.98,0.92,0.94,0.92,184900.0,0.92
2020-12-24,1.02,0.94,0.95,1.01,150000.0,1.01
2021-01-05,0.97,0.88,0.88,0.95,393700.0,0.95
2021-01-13,1.18,1.09,1.16,1.12,388100.0,1.12
2021-01-22,1.14,1.09,1.14,1.11,332500.0,1.11
2021-02-01,1.11,1.05,1.05,1.1,236400.0,1.1
2021-02-05,1.29,1.22,1.27,1.27,323800.0,1.27